SpectraSuite Data File
++++++++++++++++++++++++++++++++++++
Date: Fri Apr 08 12:28:00 BST 2022
User: ezxiaav
Dark Spectrum Present: No
Reference Spectrum Present: No
Number of Sampled Component Spectra: 1
Spectrometers: HR4C6525
Integration Time (usec): 100000 (HR4C6525)
Spectra Averaged: 1 (HR4C6525)
Boxcar Smoothing: 0 (HR4C6525)
Correct for Electrical Dark: No (HR4C6525)
Strobe/Lamp Enabled: No (HR4C6525)
Correct for Detector Non-linearity: No (HR4C6525)
Correct for Stray Light: No (HR4C6525)
Number of Pixels in Processed Spectrum: 3648
>>>>>Begin Processed Spectral Data<<<<<
195.07	861.00
195.34	861.00
195.61	861.00
195.88	867.00
196.15	976.00
196.42	950.00
196.69	991.00
196.96	971.00
197.23	946.00
197.50	984.00
197.77	976.00
198.04	993.00
198.31	991.00
198.58	976.00
198.85	942.00
199.12	987.00
199.39	989.00
199.66	978.00
199.93	973.00
200.20	963.00
200.47	981.00
200.74	973.00
201.01	981.00
201.28	974.00
201.55	992.00
201.82	1000.00
202.09	962.00
202.36	969.00
202.62	995.00
202.89	983.00
203.16	996.00
203.43	979.00
203.70	985.00
203.97	1003.00
204.24	980.00
204.51	1004.00
204.78	971.00
205.05	991.00
205.32	996.00
205.59	958.00
205.86	987.00
206.13	986.00
206.40	984.00
206.67	987.00
206.94	976.00
207.21	980.00
207.48	996.00
207.75	973.00
208.02	956.00
208.29	999.00
208.56	978.00
208.83	984.00
209.10	972.00
209.37	987.00
209.64	981.00
209.91	973.00
210.18	982.00
210.45	968.00
210.72	965.00
210.99	978.00
211.26	972.00
211.53	957.00
211.80	981.00
212.07	980.00
212.34	975.00
212.61	971.00
212.88	981.00
213.14	996.00
213.41	994.00
213.68	982.00
213.95	988.00
214.22	973.00
214.49	968.00
214.76	964.00
215.03	959.00
215.30	966.00
215.57	973.00
215.84	1003.00
216.11	982.00
216.38	987.00
216.65	964.00
216.92	994.00
217.19	981.00
217.46	974.00
217.73	982.00
218.00	992.00
218.27	968.00
218.54	988.00
218.80	956.00
219.07	955.00
219.34	985.00
219.61	973.00
219.88	1017.00
220.15	968.00
220.42	992.00
220.69	987.00
220.96	976.00
221.23	978.00
221.50	994.00
221.77	998.00
222.04	980.00
222.31	994.00
222.58	975.00
222.85	984.00
223.12	991.00
223.38	991.00
223.65	976.00
223.92	985.00
224.19	983.00
224.46	1005.00
224.73	998.00
225.00	990.00
225.27	980.00
225.54	999.00
225.81	956.00
226.08	988.00
226.35	983.00
226.62	1010.00
226.89	1000.00
227.15	983.00
227.42	969.00
227.69	972.00
227.96	990.00
228.23	956.00
228.50	1007.00
228.77	988.00
229.04	983.00
229.31	995.00
229.58	975.00
229.85	995.00
230.12	1002.00
230.38	971.00
230.65	985.00
230.92	984.00
231.19	986.00
231.46	978.00
231.73	969.00
232.00	972.00
232.27	956.00
232.54	997.00
232.81	992.00
233.08	988.00
233.35	968.00
233.61	983.00
233.88	971.00
234.15	978.00
234.42	989.00
234.69	979.00
234.96	993.00
235.23	991.00
235.50	979.00
235.77	948.00
236.04	979.00
236.30	959.00
236.57	975.00
236.84	968.00
237.11	979.00
237.38	967.00
237.65	975.00
237.92	974.00
238.19	974.00
238.46	976.00
238.73	962.00
238.99	990.00
239.26	988.00
239.53	995.00
239.80	963.00
240.07	971.00
240.34	992.00
240.61	975.00
240.88	965.00
241.15	966.00
241.41	973.00
241.68	971.00
241.95	993.00
242.22	967.00
242.49	968.00
242.76	976.00
243.03	973.00
243.30	997.00
243.56	1003.00
243.83	1003.00
244.10	980.00
244.37	961.00
244.64	951.00
244.91	963.00
245.18	1002.00
245.45	991.00
245.71	961.00
245.98	981.00
246.25	1002.00
246.52	1004.00
246.79	978.00
247.06	992.00
247.33	949.00
247.60	997.00
247.86	1009.00
248.13	979.00
248.40	964.00
248.67	1009.00
248.94	982.00
249.21	967.00
249.48	966.00
249.75	990.00
250.01	984.00
250.28	971.00
250.55	1009.00
250.82	1000.00
251.09	1008.00
251.36	971.00
251.63	968.00
251.89	986.00
252.16	987.00
252.43	991.00
252.70	982.00
252.97	984.00
253.24	981.00
253.51	994.00
253.77	986.00
254.04	955.00
254.31	972.00
254.58	993.00
254.85	976.00
255.12	977.00
255.38	956.00
255.65	971.00
255.92	986.00
256.19	977.00
256.46	998.00
256.73	986.00
257.00	978.00
257.26	971.00
257.53	988.00
257.80	996.00
258.07	1011.00
258.34	961.00
258.61	993.00
258.87	999.00
259.14	979.00
259.41	988.00
259.68	975.00
259.95	985.00
260.22	990.00
260.48	966.00
260.75	993.00
261.02	998.00
261.29	971.00
261.56	983.00
261.83	974.00
262.09	976.00
262.36	966.00
262.63	970.00
262.90	971.00
263.17	985.00
263.44	1001.00
263.70	980.00
263.97	1004.00
264.24	983.00
264.51	987.00
264.78	1002.00
265.05	955.00
265.31	958.00
265.58	986.00
265.85	969.00
266.12	979.00
266.39	1006.00
266.65	975.00
266.92	962.00
267.19	985.00
267.46	967.00
267.73	968.00
268.00	994.00
268.26	989.00
268.53	976.00
268.80	973.00
269.07	990.00
269.34	1007.00
269.60	967.00
269.87	982.00
270.14	990.00
270.41	978.00
270.68	1001.00
270.94	989.00
271.21	963.00
271.48	977.00
271.75	986.00
272.02	981.00
272.28	996.00
272.55	1004.00
272.82	994.00
273.09	982.00
273.36	986.00
273.62	1008.00
273.89	990.00
274.16	978.00
274.43	975.00
274.70	972.00
274.96	994.00
275.23	979.00
275.50	994.00
275.77	961.00
276.04	977.00
276.30	964.00
276.57	986.00
276.84	986.00
277.11	984.00
277.38	962.00
277.64	999.00
277.91	965.00
278.18	976.00
278.45	991.00
278.71	995.00
278.98	991.00
279.25	979.00
279.52	967.00
279.79	963.00
280.05	956.00
280.32	968.00
280.59	996.00
280.86	973.00
281.13	971.00
281.39	989.00
281.66	972.00
281.93	979.00
282.20	981.00
282.46	998.00
282.73	972.00
283.00	972.00
283.27	973.00
283.53	987.00
283.80	995.00
284.07	979.00
284.34	986.00
284.61	996.00
284.87	981.00
285.14	988.00
285.41	968.00
285.68	1004.00
285.94	989.00
286.21	987.00
286.48	959.00
286.75	983.00
287.01	973.00
287.28	991.00
287.55	993.00
287.82	997.00
288.08	1016.00
288.35	997.00
288.62	962.00
288.89	987.00
289.16	990.00
289.42	962.00
289.69	973.00
289.96	984.00
290.23	978.00
290.49	977.00
290.76	978.00
291.03	1015.00
291.30	990.00
291.56	986.00
291.83	959.00
292.10	970.00
292.37	998.00
292.63	982.00
292.90	990.00
293.17	1013.00
293.44	991.00
293.70	983.00
293.97	981.00
294.24	985.00
294.50	1002.00
294.77	987.00
295.04	973.00
295.31	978.00
295.57	960.00
295.84	986.00
296.11	978.00
296.38	1025.00
296.64	984.00
296.91	977.00
297.18	982.00
297.45	980.00
297.71	965.00
297.98	953.00
298.25	1003.00
298.52	970.00
298.78	973.00
299.05	982.00
299.32	953.00
299.58	969.00
299.85	986.00
300.12	984.00
300.39	990.00
300.65	1005.00
300.92	972.00
301.19	985.00
301.46	1003.00
301.72	970.00
301.99	999.00
302.26	971.00
302.52	965.00
302.79	983.00
303.06	973.00
303.33	992.00
303.59	1003.00
303.86	994.00
304.13	986.00
304.39	952.00
304.66	959.00
304.93	977.00
305.20	992.00
305.46	983.00
305.73	968.00
306.00	964.00
306.26	974.00
306.53	982.00
306.80	993.00
307.06	973.00
307.33	963.00
307.60	971.00
307.87	970.00
308.13	974.00
308.40	967.00
308.67	958.00
308.93	959.00
309.20	987.00
309.47	972.00
309.74	975.00
310.00	1002.00
310.27	999.00
310.54	1007.00
310.80	975.00
311.07	941.00
311.34	985.00
311.60	997.00
311.87	967.00
312.14	980.00
312.40	980.00
312.67	980.00
312.94	973.00
313.21	984.00
313.47	983.00
313.74	985.00
314.01	984.00
314.27	964.00
314.54	989.00
314.81	972.00
315.07	1005.00
315.34	993.00
315.61	984.00
315.87	1004.00
316.14	983.00
316.41	965.00
316.67	962.00
316.94	1013.00
317.21	989.00
317.47	957.00
317.74	990.00
318.01	984.00
318.27	955.00
318.54	995.00
318.81	985.00
319.08	999.00
319.34	980.00
319.61	958.00
319.88	989.00
320.14	954.00
320.41	993.00
320.68	1003.00
320.94	1006.00
321.21	971.00
321.48	994.00
321.74	968.00
322.01	965.00
322.28	1001.00
322.54	968.00
322.81	963.00
323.08	985.00
323.34	960.00
323.61	963.00
323.88	991.00
324.14	995.00
324.41	964.00
324.67	985.00
324.94	974.00
325.21	974.00
325.47	980.00
325.74	1011.00
326.01	975.00
326.27	991.00
326.54	1010.00
326.81	980.00
327.07	971.00
327.34	970.00
327.61	984.00
327.87	974.00
328.14	996.00
328.41	1017.00
328.67	984.00
328.94	1018.00
329.21	998.00
329.47	983.00
329.74	980.00
330.00	980.00
330.27	1003.00
330.54	978.00
330.80	984.00
331.07	981.00
331.34	1001.00
331.60	978.00
331.87	974.00
332.14	971.00
332.40	972.00
332.67	980.00
332.93	991.00
333.20	995.00
333.47	987.00
333.73	986.00
334.00	971.00
334.27	1011.00
334.53	1022.00
334.80	974.00
335.07	984.00
335.33	984.00
335.60	964.00
335.86	952.00
336.13	976.00
336.40	946.00
336.66	970.00
336.93	997.00
337.20	982.00
337.46	981.00
337.73	1001.00
337.99	1018.00
338.26	986.00
338.53	976.00
338.79	985.00
339.06	989.00
339.32	971.00
339.59	1011.00
339.86	995.00
340.12	977.00
340.39	971.00
340.66	978.00
340.92	995.00
341.19	979.00
341.45	986.00
341.72	965.00
341.99	988.00
342.25	972.00
342.52	978.00
342.78	977.00
343.05	1002.00
343.32	981.00
343.58	979.00
343.85	977.00
344.11	969.00
344.38	997.00
344.65	988.00
344.91	992.00
345.18	982.00
345.44	977.00
345.71	995.00
345.98	983.00
346.24	987.00
346.51	981.00
346.77	996.00
347.04	981.00
347.31	994.00
347.57	980.00
347.84	979.00
348.10	1005.00
348.37	1003.00
348.64	970.00
348.90	982.00
349.17	984.00
349.43	996.00
349.70	972.00
349.96	1013.00
350.23	1004.00
350.50	995.00
350.76	995.00
351.03	977.00
351.29	976.00
351.56	948.00
351.83	991.00
352.09	986.00
352.36	967.00
352.62	980.00
352.89	1000.00
353.15	981.00
353.42	989.00
353.69	985.00
353.95	995.00
354.22	998.00
354.48	1015.00
354.75	997.00
355.01	985.00
355.28	977.00
355.55	979.00
355.81	1000.00
356.08	1002.00
356.34	995.00
356.61	950.00
356.87	983.00
357.14	983.00
357.41	976.00
357.67	966.00
357.94	975.00
358.20	957.00
358.47	987.00
358.73	984.00
359.00	996.00
359.26	1000.00
359.53	998.00
359.80	972.00
360.06	967.00
360.33	974.00
360.59	962.00
360.86	978.00
361.12	1004.00
361.39	996.00
361.65	974.00
361.92	976.00
362.19	979.00
362.45	988.00
362.72	980.00
362.98	965.00
363.25	972.00
363.51	993.00
363.78	979.00
364.04	980.00
364.31	998.00
364.57	996.00
364.84	980.00
365.11	986.00
365.37	979.00
365.64	978.00
365.90	964.00
366.17	956.00
366.43	968.00
366.70	993.00
366.96	993.00
367.23	1011.00
367.49	975.00
367.76	985.00
368.02	982.00
368.29	972.00
368.56	990.00
368.82	983.00
369.09	995.00
369.35	1001.00
369.62	989.00
369.88	992.00
370.15	952.00
370.41	984.00
370.68	965.00
370.94	988.00
371.21	991.00
371.47	984.00
371.74	990.00
372.00	1009.00
372.27	987.00
372.53	985.00
372.80	954.00
373.06	1015.00
373.33	997.00
373.60	972.00
373.86	975.00
374.13	973.00
374.39	959.00
374.66	985.00
374.92	978.00
375.19	998.00
375.45	983.00
375.72	985.00
375.98	1029.00
376.25	976.00
376.51	997.00
376.78	985.00
377.04	990.00
377.31	972.00
377.57	968.00
377.84	992.00
378.10	989.00
378.37	972.00
378.63	974.00
378.90	977.00
379.16	985.00
379.43	982.00
379.69	969.00
379.96	989.00
380.22	986.00
380.49	973.00
380.75	979.00
381.02	1002.00
381.28	973.00
381.55	961.00
381.81	971.00
382.08	1003.00
382.34	982.00
382.61	989.00
382.87	986.00
383.14	972.00
383.40	967.00
383.67	1000.00
383.93	986.00
384.20	949.00
384.46	986.00
384.73	979.00
384.99	973.00
385.26	990.00
385.52	1007.00
385.78	993.00
386.05	970.00
386.31	997.00
386.58	944.00
386.84	1008.00
387.11	984.00
387.37	973.00
387.64	973.00
387.90	950.00
388.17	1008.00
388.43	986.00
388.70	993.00
388.96	979.00
389.23	997.00
389.49	979.00
389.76	967.00
390.02	973.00
390.29	969.00
390.55	975.00
390.81	994.00
391.08	979.00
391.34	957.00
391.61	975.00
391.87	985.00
392.14	1000.00
392.40	971.00
392.67	992.00
392.93	1000.00
393.20	1005.00
393.46	962.00
393.73	983.00
393.99	978.00
394.25	1004.00
394.52	998.00
394.78	968.00
395.05	995.00
395.31	986.00
395.58	983.00
395.84	960.00
396.11	996.00
396.37	986.00
396.64	1005.00
396.90	990.00
397.16	989.00
397.43	979.00
397.69	984.00
397.96	976.00
398.22	998.00
398.49	986.00
398.75	988.00
399.02	1013.00
399.28	977.00
399.54	993.00
399.81	986.00
400.07	987.00
400.34	975.00
400.60	1003.00
400.87	969.00
401.13	989.00
401.40	994.00
401.66	971.00
401.92	968.00
402.19	973.00
402.45	988.00
402.72	996.00
402.98	982.00
403.25	1001.00
403.51	984.00
403.77	979.00
404.04	963.00
404.30	988.00
404.57	983.00
404.83	1015.00
405.10	973.00
405.36	969.00
405.62	982.00
405.89	978.00
406.15	977.00
406.42	991.00
406.68	1000.00
406.94	963.00
407.21	990.00
407.47	965.00
407.74	963.00
408.00	1006.00
408.27	985.00
408.53	974.00
408.79	978.00
409.06	981.00
409.32	979.00
409.59	968.00
409.85	975.00
410.11	978.00
410.38	987.00
410.64	966.00
410.91	974.00
411.17	991.00
411.44	997.00
411.70	1000.00
411.96	982.00
412.23	994.00
412.49	997.00
412.76	981.00
413.02	988.00
413.28	1018.00
413.55	997.00
413.81	985.00
414.08	996.00
414.34	971.00
414.60	965.00
414.87	1014.00
415.13	992.00
415.40	977.00
415.66	978.00
415.92	973.00
416.19	975.00
416.45	1001.00
416.71	985.00
416.98	991.00
417.24	1004.00
417.51	1006.00
417.77	984.00
418.03	991.00
418.30	1003.00
418.56	1007.00
418.83	990.00
419.09	981.00
419.35	964.00
419.62	981.00
419.88	1013.00
420.14	979.00
420.41	986.00
420.67	1019.00
420.94	1005.00
421.20	984.00
421.46	954.00
421.73	973.00
421.99	965.00
422.25	974.00
422.52	976.00
422.78	970.00
423.05	979.00
423.31	963.00
423.57	978.00
423.84	997.00
424.10	979.00
424.36	985.00
424.63	1010.00
424.89	972.00
425.16	983.00
425.42	991.00
425.68	992.00
425.95	998.00
426.21	985.00
426.47	987.00
426.74	989.00
427.00	994.00
427.26	983.00
427.53	979.00
427.79	1005.00
428.06	998.00
428.32	976.00
428.58	966.00
428.85	999.00
429.11	984.00
429.37	1001.00
429.64	994.00
429.90	996.00
430.16	972.00
430.43	991.00
430.69	977.00
430.95	966.00
431.22	975.00
431.48	994.00
431.74	972.00
432.01	980.00
432.27	1005.00
432.53	1003.00
432.80	1002.00
433.06	978.00
433.32	1017.00
433.59	975.00
433.85	967.00
434.11	987.00
434.38	996.00
434.64	997.00
434.90	1009.00
435.17	981.00
435.43	1002.00
435.69	1006.00
435.96	1018.00
436.22	1010.00
436.48	995.00
436.75	979.00
437.01	970.00
437.27	994.00
437.54	993.00
437.80	972.00
438.06	979.00
438.33	1001.00
438.59	982.00
438.85	1012.00
439.12	992.00
439.38	997.00
439.64	1019.00
439.91	999.00
440.17	997.00
440.43	1004.00
440.70	990.00
440.96	983.00
441.22	986.00
441.49	1017.00
441.75	1009.00
442.01	977.00
442.28	1009.00
442.54	985.00
442.80	1008.00
443.07	988.00
443.33	1010.00
443.59	994.00
443.85	1000.00
444.12	1006.00
444.38	996.00
444.64	1003.00
444.91	1016.00
445.17	992.00
445.43	998.00
445.70	1024.00
445.96	1009.00
446.22	998.00
446.48	1005.00
446.75	993.00
447.01	1021.00
447.27	1016.00
447.54	1033.00
447.80	1041.00
448.06	1015.00
448.33	1015.00
448.59	1021.00
448.85	1007.00
449.11	1020.00
449.38	1002.00
449.64	1026.00
449.90	1041.00
450.17	1033.00
450.43	1029.00
450.69	1040.00
450.95	1017.00
451.22	1058.00
451.48	1052.00
451.74	1064.00
452.01	1051.00
452.27	1065.00
452.53	1059.00
452.79	1065.00
453.06	1070.00
453.32	1050.00
453.58	1030.00
453.85	1073.00
454.11	1069.00
454.37	1068.00
454.63	1084.00
454.90	1068.00
455.16	1093.00
455.42	1094.00
455.69	1076.00
455.95	1061.00
456.21	1065.00
456.47	1088.00
456.74	1096.00
457.00	1065.00
457.26	1079.00
457.52	1083.00
457.79	1086.00
458.05	1088.00
458.31	1085.00
458.57	1096.00
458.84	1080.00
459.10	1096.00
459.36	1097.00
459.63	1075.00
459.89	1077.00
460.15	1086.00
460.41	1064.00
460.68	1079.00
460.94	1060.00
461.20	1095.00
461.46	1117.00
461.73	1111.00
461.99	1095.00
462.25	1119.00
462.51	1084.00
462.78	1082.00
463.04	1081.00
463.30	1098.00
463.56	1105.00
463.83	1083.00
464.09	1091.00
464.35	1099.00
464.61	1075.00
464.88	1081.00
465.14	1098.00
465.40	1085.00
465.66	1071.00
465.93	1099.00
466.19	1076.00
466.45	1106.00
466.71	1085.00
466.97	1102.00
467.24	1091.00
467.50	1074.00
467.76	1083.00
468.02	1114.00
468.29	1076.00
468.55	1086.00
468.81	1096.00
469.07	1075.00
469.34	1097.00
469.60	1098.00
469.86	1126.00
470.12	1082.00
470.39	1102.00
470.65	1113.00
470.91	1091.00
471.17	1089.00
471.43	1110.00
471.70	1120.00
471.96	1099.00
472.22	1113.00
472.48	1121.00
472.75	1113.00
473.01	1085.00
473.27	1121.00
473.53	1091.00
473.79	1085.00
474.06	1106.00
474.32	1100.00
474.58	1102.00
474.84	1103.00
475.10	1121.00
475.37	1099.00
475.63	1080.00
475.89	1113.00
476.15	1079.00
476.42	1102.00
476.68	1093.00
476.94	1107.00
477.20	1131.00
477.46	1114.00
477.73	1106.00
477.99	1089.00
478.25	1120.00
478.51	1134.00
478.77	1097.00
479.04	1105.00
479.30	1105.00
479.56	1075.00
479.82	1101.00
480.08	1103.00
480.35	1105.00
480.61	1110.00
480.87	1109.00
481.13	1111.00
481.39	1077.00
481.66	1098.00
481.92	1122.00
482.18	1130.00
482.44	1115.00
482.70	1114.00
482.96	1106.00
483.23	1124.00
483.49	1101.00
483.75	1115.00
484.01	1127.00
484.27	1101.00
484.54	1089.00
484.80	1098.00
485.06	1108.00
485.32	1138.00
485.58	1102.00
485.85	1098.00
486.11	1114.00
486.37	1112.00
486.63	1090.00
486.89	1116.00
487.15	1130.00
487.42	1112.00
487.68	1108.00
487.94	1075.00
488.20	1114.00
488.46	1107.00
488.72	1109.00
488.99	1104.00
489.25	1109.00
489.51	1129.00
489.77	1096.00
490.03	1127.00
490.29	1111.00
490.56	1139.00
490.82	1124.00
491.08	1090.00
491.34	1153.00
491.60	1100.00
491.86	1117.00
492.13	1108.00
492.39	1104.00
492.65	1108.00
492.91	1090.00
493.17	1084.00
493.43	1102.00
493.70	1125.00
493.96	1104.00
494.22	1119.00
494.48	1104.00
494.74	1128.00
495.00	1110.00
495.26	1103.00
495.53	1110.00
495.79	1088.00
496.05	1115.00
496.31	1119.00
496.57	1102.00
496.83	1096.00
497.09	1099.00
497.36	1142.00
497.62	1131.00
497.88	1114.00
498.14	1123.00
498.40	1120.00
498.66	1103.00
498.92	1123.00
499.19	1125.00
499.45	1117.00
499.71	1099.00
499.97	1093.00
500.23	1107.00
500.49	1108.00
500.75	1115.00
501.02	1105.00
501.28	1099.00
501.54	1127.00
501.80	1120.00
502.06	1118.00
502.32	1114.00
502.58	1090.00
502.84	1099.00
503.11	1117.00
503.37	1125.00
503.63	1118.00
503.89	1078.00
504.15	1100.00
504.41	1131.00
504.67	1128.00
504.93	1136.00
505.20	1096.00
505.46	1104.00
505.72	1114.00
505.98	1098.00
506.24	1104.00
506.50	1133.00
506.76	1111.00
507.02	1110.00
507.28	1116.00
507.55	1112.00
507.81	1113.00
508.07	1117.00
508.33	1111.00
508.59	1090.00
508.85	1106.00
509.11	1137.00
509.37	1121.00
509.63	1114.00
509.90	1100.00
510.16	1120.00
510.42	1125.00
510.68	1112.00
510.94	1127.00
511.20	1091.00
511.46	1097.00
511.72	1130.00
511.98	1127.00
512.24	1103.00
512.51	1094.00
512.77	1077.00
513.03	1121.00
513.29	1127.00
513.55	1122.00
513.81	1141.00
514.07	1145.00
514.33	1114.00
514.59	1108.00
514.85	1099.00
515.11	1123.00
515.38	1108.00
515.64	1129.00
515.90	1133.00
516.16	1111.00
516.42	1131.00
516.68	1120.00
516.94	1097.00
517.20	1120.00
517.46	1109.00
517.72	1109.00
517.98	1104.00
518.24	1098.00
518.51	1109.00
518.77	1100.00
519.03	1133.00
519.29	1158.00
519.55	1131.00
519.81	1104.00
520.07	1088.00
520.33	1108.00
520.59	1094.00
520.85	1108.00
521.11	1130.00
521.37	1104.00
521.63	1107.00
521.89	1097.00
522.16	1112.00
522.42	1118.00
522.68	1100.00
522.94	1123.00
523.20	1110.00
523.46	1116.00
523.72	1110.00
523.98	1100.00
524.24	1099.00
524.50	1104.00
524.76	1097.00
525.02	1129.00
525.28	1116.00
525.54	1119.00
525.80	1112.00
526.06	1127.00
526.33	1124.00
526.59	1119.00
526.85	1110.00
527.11	1134.00
527.37	1140.00
527.63	1113.00
527.89	1090.00
528.15	1131.00
528.41	1131.00
528.67	1108.00
528.93	1107.00
529.19	1120.00
529.45	1118.00
529.71	1112.00
529.97	1114.00
530.23	1132.00
530.49	1121.00
530.75	1129.00
531.01	1123.00
531.27	1088.00
531.53	1108.00
531.79	1093.00
532.05	1122.00
532.31	1133.00
532.58	1124.00
532.84	1104.00
533.10	1129.00
533.36	1108.00
533.62	1093.00
533.88	1117.00
534.14	1115.00
534.40	1116.00
534.66	1119.00
534.92	1121.00
535.18	1104.00
535.44	1117.00
535.70	1123.00
535.96	1121.00
536.22	1120.00
536.48	1127.00
536.74	1092.00
537.00	1132.00
537.26	1129.00
537.52	1091.00
537.78	1134.00
538.04	1130.00
538.30	1105.00
538.56	1102.00
538.82	1098.00
539.08	1103.00
539.34	1110.00
539.60	1127.00
539.86	1072.00
540.12	1114.00
540.38	1124.00
540.64	1095.00
540.90	1109.00
541.16	1106.00
541.42	1110.00
541.68	1138.00
541.94	1090.00
542.20	1110.00
542.46	1113.00
542.72	1116.00
542.98	1099.00
543.24	1124.00
543.50	1113.00
543.76	1100.00
544.02	1124.00
544.28	1084.00
544.54	1115.00
544.80	1096.00
545.06	1106.00
545.32	1110.00
545.58	1101.00
545.84	1108.00
546.10	1112.00
546.36	1103.00
546.62	1132.00
546.88	1131.00
547.14	1101.00
547.40	1102.00
547.66	1095.00
547.92	1113.00
548.18	1104.00
548.44	1110.00
548.70	1102.00
548.96	1118.00
549.22	1125.00
549.48	1126.00
549.74	1097.00
550.00	1126.00
550.26	1117.00
550.52	1100.00
550.78	1107.00
551.04	1120.00
551.30	1075.00
551.56	1109.00
551.82	1097.00
552.08	1112.00
552.34	1114.00
552.60	1114.00
552.85	1101.00
553.11	1089.00
553.37	1104.00
553.63	1117.00
553.89	1111.00
554.15	1151.00
554.41	1106.00
554.67	1145.00
554.93	1131.00
555.19	1110.00
555.45	1115.00
555.71	1118.00
555.97	1106.00
556.23	1127.00
556.49	1121.00
556.75	1112.00
557.01	1112.00
557.27	1136.00
557.53	1133.00
557.79	1120.00
558.05	1110.00
558.31	1124.00
558.57	1104.00
558.83	1112.00
559.08	1119.00
559.34	1138.00
559.60	1123.00
559.86	1107.00
560.12	1119.00
560.38	1122.00
560.64	1124.00
560.90	1132.00
561.16	1101.00
561.42	1103.00
561.68	1095.00
561.94	1130.00
562.20	1109.00
562.46	1114.00
562.72	1106.00
562.98	1093.00
563.23	1110.00
563.49	1079.00
563.75	1128.00
564.01	1106.00
564.27	1076.00
564.53	1131.00
564.79	1090.00
565.05	1098.00
565.31	1123.00
565.57	1107.00
565.83	1102.00
566.09	1106.00
566.35	1088.00
566.61	1129.00
566.86	1088.00
567.12	1090.00
567.38	1156.00
567.64	1110.00
567.90	1107.00
568.16	1138.00
568.42	1115.00
568.68	1115.00
568.94	1125.00
569.20	1110.00
569.46	1125.00
569.72	1115.00
569.97	1118.00
570.23	1093.00
570.49	1126.00
570.75	1108.00
571.01	1108.00
571.27	1117.00
571.53	1143.00
571.79	1130.00
572.05	1105.00
572.31	1119.00
572.57	1110.00
572.82	1103.00
573.08	1121.00
573.34	1098.00
573.60	1123.00
573.86	1115.00
574.12	1121.00
574.38	1127.00
574.64	1125.00
574.90	1118.00
575.16	1097.00
575.41	1112.00
575.67	1109.00
575.93	1093.00
576.19	1109.00
576.45	1149.00
576.71	1124.00
576.97	1109.00
577.23	1125.00
577.49	1101.00
577.74	1113.00
578.00	1122.00
578.26	1114.00
578.52	1100.00
578.78	1116.00
579.04	1145.00
579.30	1112.00
579.56	1127.00
579.81	1129.00
580.07	1086.00
580.33	1111.00
580.59	1112.00
580.85	1120.00
581.11	1131.00
581.37	1097.00
581.63	1106.00
581.88	1120.00
582.14	1097.00
582.40	1118.00
582.66	1130.00
582.92	1134.00
583.18	1132.00
583.44	1114.00
583.70	1124.00
583.95	1129.00
584.21	1094.00
584.47	1116.00
584.73	1087.00
584.99	1118.00
585.25	1141.00
585.51	1102.00
585.76	1128.00
586.02	1123.00
586.28	1125.00
586.54	1114.00
586.80	1089.00
587.06	1110.00
587.32	1123.00
587.57	1096.00
587.83	1084.00
588.09	1121.00
588.35	1104.00
588.61	1109.00
588.87	1118.00
589.13	1150.00
589.38	1121.00
589.64	1112.00
589.90	1136.00
590.16	1127.00
590.42	1111.00
590.68	1086.00
590.94	1117.00
591.19	1113.00
591.45	1102.00
591.71	1113.00
591.97	1117.00
592.23	1144.00
592.49	1111.00
592.74	1137.00
593.00	1107.00
593.26	1124.00
593.52	1104.00
593.78	1116.00
594.04	1100.00
594.29	1118.00
594.55	1127.00
594.81	1113.00
595.07	1130.00
595.33	1121.00
595.59	1116.00
595.84	1126.00
596.10	1104.00
596.36	1116.00
596.62	1114.00
596.88	1103.00
597.13	1101.00
597.39	1119.00
597.65	1130.00
597.91	1110.00
598.17	1117.00
598.43	1107.00
598.68	1108.00
598.94	1122.00
599.20	1137.00
599.46	1101.00
599.72	1105.00
599.97	1118.00
600.23	1131.00
600.49	1109.00
600.75	1106.00
601.01	1086.00
601.27	1119.00
601.52	1113.00
601.78	1129.00
602.04	1101.00
602.30	1132.00
602.56	1105.00
602.81	1132.00
603.07	1149.00
603.33	1108.00
603.59	1138.00
603.85	1117.00
604.10	1109.00
604.36	1126.00
604.62	1091.00
604.88	1132.00
605.14	1104.00
605.39	1105.00
605.65	1120.00
605.91	1127.00
606.17	1163.00
606.43	1127.00
606.68	1129.00
606.94	1132.00
607.20	1139.00
607.46	1100.00
607.71	1107.00
607.97	1104.00
608.23	1092.00
608.49	1134.00
608.75	1135.00
609.00	1096.00
609.26	1104.00
609.52	1124.00
609.78	1092.00
610.03	1109.00
610.29	1090.00
610.55	1120.00
610.81	1123.00
611.07	1115.00
611.32	1122.00
611.58	1106.00
611.84	1105.00
612.10	1094.00
612.35	1113.00
612.61	1133.00
612.87	1137.00
613.13	1110.00
613.39	1106.00
613.64	1144.00
613.90	1140.00
614.16	1127.00
614.42	1117.00
614.67	1123.00
614.93	1119.00
615.19	1074.00
615.45	1118.00
615.70	1139.00
615.96	1110.00
616.22	1080.00
616.48	1102.00
616.73	1086.00
616.99	1100.00
617.25	1132.00
617.51	1108.00
617.76	1125.00
618.02	1105.00
618.28	1132.00
618.54	1132.00
618.79	1098.00
619.05	1131.00
619.31	1118.00
619.57	1121.00
619.82	1138.00
620.08	1126.00
620.34	1127.00
620.60	1125.00
620.85	1161.00
621.11	1131.00
621.37	1134.00
621.63	1126.00
621.88	1124.00
622.14	1133.00
622.40	1130.00
622.66	1109.00
622.91	1110.00
623.17	1116.00
623.43	1125.00
623.69	1109.00
623.94	1128.00
624.20	1105.00
624.46	1106.00
624.71	1117.00
624.97	1114.00
625.23	1100.00
625.49	1101.00
625.74	1093.00
626.00	1097.00
626.26	1099.00
626.52	1112.00
626.77	1127.00
627.03	1118.00
627.29	1092.00
627.54	1125.00
627.80	1124.00
628.06	1104.00
628.32	1104.00
628.57	1119.00
628.83	1098.00
629.09	1105.00
629.34	1104.00
629.60	1122.00
629.86	1150.00
630.12	1144.00
630.37	1148.00
630.63	1128.00
630.89	1108.00
631.14	1121.00
631.40	1111.00
631.66	1128.00
631.92	1119.00
632.17	1098.00
632.43	1122.00
632.69	1105.00
632.94	1120.00
633.20	1110.00
633.46	1140.00
633.71	1155.00
633.97	1115.00
634.23	1113.00
634.49	1122.00
634.74	1107.00
635.00	1091.00
635.26	1115.00
635.51	1127.00
635.77	1096.00
636.03	1115.00
636.28	1105.00
636.54	1119.00
636.80	1112.00
637.05	1104.00
637.31	1137.00
637.57	1112.00
637.83	1126.00
638.08	1148.00
638.34	1111.00
638.60	1107.00
638.85	1125.00
639.11	1116.00
639.37	1129.00
639.62	1130.00
639.88	1098.00
640.14	1095.00
640.39	1127.00
640.65	1123.00
640.91	1101.00
641.16	1112.00
641.42	1133.00
641.68	1111.00
641.93	1121.00
642.19	1106.00
642.45	1108.00
642.70	1104.00
642.96	1100.00
643.22	1104.00
643.47	1086.00
643.73	1128.00
643.99	1131.00
644.24	1104.00
644.50	1144.00
644.76	1140.00
645.01	1116.00
645.27	1113.00
645.53	1117.00
645.78	1108.00
646.04	1102.00
646.30	1112.00
646.55	1110.00
646.81	1112.00
647.07	1130.00
647.32	1108.00
647.58	1134.00
647.84	1116.00
648.09	1115.00
648.35	1151.00
648.61	1098.00
648.86	1078.00
649.12	1117.00
649.37	1100.00
649.63	1114.00
649.89	1118.00
650.14	1121.00
650.40	1112.00
650.66	1134.00
650.91	1117.00
651.17	1098.00
651.43	1123.00
651.68	1110.00
651.94	1111.00
652.20	1113.00
652.45	1124.00
652.71	1133.00
652.96	1143.00
653.22	1133.00
653.48	1122.00
653.73	1103.00
653.99	1112.00
654.25	1109.00
654.50	1127.00
654.76	1118.00
655.01	1112.00
655.27	1110.00
655.53	1123.00
655.78	1109.00
656.04	1101.00
656.30	1133.00
656.55	1099.00
656.81	1110.00
657.06	1105.00
657.32	1090.00
657.58	1091.00
657.83	1083.00
658.09	1132.00
658.35	1108.00
658.60	1119.00
658.86	1118.00
659.11	1109.00
659.37	1105.00
659.63	1112.00
659.88	1114.00
660.14	1099.00
660.39	1108.00
660.65	1110.00
660.91	1109.00
661.16	1106.00
661.42	1086.00
661.67	1112.00
661.93	1128.00
662.19	1126.00
662.44	1102.00
662.70	1114.00
662.95	1117.00
663.21	1124.00
663.47	1109.00
663.72	1129.00
663.98	1099.00
664.23	1080.00
664.49	1078.00
664.75	1126.00
665.00	1098.00
665.26	1104.00
665.51	1108.00
665.77	1115.00
666.03	1100.00
666.28	1122.00
666.54	1119.00
666.79	1122.00
667.05	1107.00
667.31	1108.00
667.56	1121.00
667.82	1113.00
668.07	1102.00
668.33	1101.00
668.58	1129.00
668.84	1094.00
669.10	1090.00
669.35	1118.00
669.61	1116.00
669.86	1142.00
670.12	1136.00
670.37	1125.00
670.63	1090.00
670.89	1086.00
671.14	1122.00
671.40	1084.00
671.65	1089.00
671.91	1100.00
672.16	1112.00
672.42	1110.00
672.68	1116.00
672.93	1110.00
673.19	1117.00
673.44	1111.00
673.70	1118.00
673.95	1139.00
674.21	1113.00
674.47	1113.00
674.72	1104.00
674.98	1117.00
675.23	1107.00
675.49	1105.00
675.74	1099.00
676.00	1125.00
676.25	1121.00
676.51	1110.00
676.76	1082.00
677.02	1110.00
677.28	1123.00
677.53	1115.00
677.79	1109.00
678.04	1093.00
678.30	1106.00
678.55	1109.00
678.81	1094.00
679.06	1068.00
679.32	1114.00
679.58	1097.00
679.83	1104.00
680.09	1117.00
680.34	1094.00
680.60	1110.00
680.85	1116.00
681.11	1116.00
681.36	1124.00
681.62	1102.00
681.87	1140.00
682.13	1112.00
682.38	1122.00
682.64	1110.00
682.89	1096.00
683.15	1129.00
683.41	1110.00
683.66	1142.00
683.92	1129.00
684.17	1134.00
684.43	1118.00
684.68	1121.00
684.94	1126.00
685.19	1106.00
685.45	1116.00
685.70	1109.00
685.96	1089.00
686.21	1117.00
686.47	1104.00
686.72	1098.00
686.98	1126.00
687.23	1122.00
687.49	1115.00
687.74	1116.00
688.00	1148.00
688.25	1117.00
688.51	1087.00
688.76	1123.00
689.02	1104.00
689.27	1093.00
689.53	1118.00
689.78	1089.00
690.04	1113.00
690.29	1108.00
690.55	1086.00
690.80	1090.00
691.06	1112.00
691.31	1094.00
691.57	1102.00
691.82	1101.00
692.08	1077.00
692.33	1119.00
692.59	1110.00
692.84	1098.00
693.10	1095.00
693.35	1108.00
693.61	1080.00
693.86	1104.00
694.12	1101.00
694.37	1119.00
694.63	1094.00
694.88	1122.00
695.14	1118.00
695.39	1121.00
695.65	1085.00
695.90	1118.00
696.16	1106.00
696.41	1141.00
696.67	1110.00
696.92	1123.00
697.18	1092.00
697.43	1098.00
697.69	1111.00
697.94	1129.00
698.20	1116.00
698.45	1102.00
698.71	1098.00
698.96	1133.00
699.22	1126.00
699.47	1091.00
699.72	1090.00
699.98	1124.00
700.23	1116.00
700.49	1112.00
700.74	1117.00
701.00	1119.00
701.25	1091.00
701.51	1116.00
701.76	1097.00
702.02	1087.00
702.27	1106.00
702.53	1085.00
702.78	1122.00
703.04	1122.00
703.29	1111.00
703.54	1087.00
703.80	1117.00
704.05	1123.00
704.31	1123.00
704.56	1126.00
704.82	1115.00
705.07	1097.00
705.33	1106.00
705.58	1126.00
705.83	1091.00
706.09	1118.00
706.34	1118.00
706.60	1100.00
706.85	1098.00
707.11	1098.00
707.36	1091.00
707.62	1101.00
707.87	1128.00
708.12	1129.00
708.38	1135.00
708.63	1113.00
708.89	1133.00
709.14	1114.00
709.40	1061.00
709.65	1123.00
709.91	1098.00
710.16	1082.00
710.41	1096.00
710.67	1091.00
710.92	1110.00
711.18	1125.00
711.43	1127.00
711.69	1098.00
711.94	1091.00
712.19	1117.00
712.45	1132.00
712.70	1130.00
712.96	1153.00
713.21	1121.00
713.47	1097.00
713.72	1087.00
713.97	1093.00
714.23	1085.00
714.48	1117.00
714.74	1134.00
714.99	1111.00
715.24	1101.00
715.50	1092.00
715.75	1120.00
716.01	1078.00
716.26	1114.00
716.52	1108.00
716.77	1112.00
717.02	1100.00
717.28	1129.00
717.53	1091.00
717.79	1113.00
718.04	1088.00
718.29	1074.00
718.55	1113.00
718.80	1134.00
719.06	1104.00
719.31	1131.00
719.56	1093.00
719.82	1107.00
720.07	1104.00
720.33	1087.00
720.58	1100.00
720.83	1108.00
721.09	1104.00
721.34	1086.00
721.60	1073.00
721.85	1108.00
722.10	1090.00
722.36	1106.00
722.61	1089.00
722.87	1116.00
723.12	1107.00
723.37	1086.00
723.63	1096.00
723.88	1099.00
724.13	1107.00
724.39	1106.00
724.64	1095.00
724.90	1119.00
725.15	1093.00
725.40	1096.00
725.66	1105.00
725.91	1092.00
726.17	1064.00
726.42	1100.00
726.67	1101.00
726.93	1103.00
727.18	1087.00
727.43	1110.00
727.69	1096.00
727.94	1092.00
728.19	1121.00
728.45	1108.00
728.70	1097.00
728.96	1118.00
729.21	1108.00
729.46	1110.00
729.72	1114.00
729.97	1128.00
730.22	1110.00
730.48	1118.00
730.73	1096.00
730.98	1090.00
731.24	1091.00
731.49	1110.00
731.75	1100.00
732.00	1132.00
732.25	1102.00
732.51	1088.00
732.76	1122.00
733.01	1116.00
733.27	1109.00
733.52	1089.00
733.77	1091.00
734.03	1099.00
734.28	1095.00
734.53	1115.00
734.79	1104.00
735.04	1079.00
735.29	1081.00
735.55	1118.00
735.80	1065.00
736.05	1085.00
736.31	1095.00
736.56	1096.00
736.82	1102.00
737.07	1093.00
737.32	1095.00
737.58	1097.00
737.83	1102.00
738.08	1131.00
738.34	1123.00
738.59	1137.00
738.84	1113.00
739.10	1115.00
739.35	1101.00
739.60	1082.00
739.86	1079.00
740.11	1093.00
740.36	1076.00
740.61	1091.00
740.87	1084.00
741.12	1110.00
741.37	1080.00
741.63	1108.00
741.88	1075.00
742.13	1096.00
742.39	1085.00
742.64	1100.00
742.89	1071.00
743.15	1107.00
743.40	1099.00
743.65	1094.00
743.91	1092.00
744.16	1094.00
744.41	1075.00
744.67	1107.00
744.92	1091.00
745.17	1091.00
745.42	1072.00
745.68	1101.00
745.93	1106.00
746.18	1108.00
746.44	1088.00
746.69	1088.00
746.94	1100.00
747.20	1095.00
747.45	1107.00
747.70	1080.00
747.95	1060.00
748.21	1110.00
748.46	1091.00
748.71	1093.00
748.97	1101.00
749.22	1092.00
749.47	1114.00
749.73	1112.00
749.98	1076.00
750.23	1082.00
750.48	1096.00
750.74	1113.00
750.99	1080.00
751.24	1121.00
751.50	1090.00
751.75	1107.00
752.00	1096.00
752.25	1098.00
752.51	1102.00
752.76	1083.00
753.01	1100.00
753.27	1075.00
753.52	1086.00
753.77	1084.00
754.02	1094.00
754.28	1104.00
754.53	1078.00
754.78	1111.00
755.03	1107.00
755.29	1102.00
755.54	1092.00
755.79	1083.00
756.05	1068.00
756.30	1108.00
756.55	1081.00
756.80	1096.00
757.06	1111.00
757.31	1094.00
757.56	1087.00
757.81	1103.00
758.07	1086.00
758.32	1106.00
758.57	1090.00
758.82	1116.00
759.08	1095.00
759.33	1108.00
759.58	1088.00
759.83	1110.00
760.09	1102.00
760.34	1107.00
760.59	1105.00
760.84	1094.00
761.10	1076.00
761.35	1084.00
761.60	1095.00
761.85	1112.00
762.11	1070.00
762.36	1093.00
762.61	1079.00
762.86	1083.00
763.12	1086.00
763.37	1078.00
763.62	1066.00
763.87	1100.00
764.13	1080.00
764.38	1071.00
764.63	1065.00
764.88	1084.00
765.14	1049.00
765.39	1092.00
765.64	1097.00
765.89	1086.00
766.15	1105.00
766.40	1086.00
766.65	1080.00
766.90	1068.00
767.15	1105.00
767.41	1077.00
767.66	1108.00
767.91	1085.00
768.16	1105.00
768.42	1114.00
768.67	1114.00
768.92	1104.00
769.17	1088.00
769.42	1116.00
769.68	1105.00
769.93	1104.00
770.18	1086.00
770.43	1069.00
770.69	1083.00
770.94	1082.00
771.19	1102.00
771.44	1084.00
771.69	1087.00
771.95	1104.00
772.20	1091.00
772.45	1082.00
772.70	1089.00
772.95	1105.00
773.21	1073.00
773.46	1097.00
773.71	1095.00
773.96	1109.00
774.21	1101.00
774.47	1088.00
774.72	1098.00
774.97	1068.00
775.22	1091.00
775.47	1086.00
775.73	1082.00
775.98	1104.00
776.23	1107.00
776.48	1092.00
776.73	1085.00
776.99	1096.00
777.24	1087.00
777.49	1088.00
777.74	1072.00
777.99	1116.00
778.25	1113.00
778.50	1117.00
778.75	1088.00
779.00	1088.00
779.25	1104.00
779.51	1102.00
779.76	1103.00
780.01	1075.00
780.26	1086.00
780.51	1079.00
780.76	1099.00
781.02	1086.00
781.27	1115.00
781.52	1099.00
781.77	1102.00
782.02	1092.00
782.27	1107.00
782.53	1104.00
782.78	1103.00
783.03	1091.00
783.28	1068.00
783.53	1101.00
783.78	1115.00
784.04	1110.00
784.29	1098.00
784.54	1095.00
784.79	1097.00
785.04	1085.00
785.29	1091.00
785.55	1090.00
785.80	1100.00
786.05	1086.00
786.30	1077.00
786.55	1094.00
786.80	1088.00
787.06	1059.00
787.31	1096.00
787.56	1082.00
787.81	1108.00
788.06	1076.00
788.31	1096.00
788.56	1116.00
788.82	1088.00
789.07	1077.00
789.32	1091.00
789.57	1092.00
789.82	1115.00
790.07	1091.00
790.32	1090.00
790.58	1072.00
790.83	1093.00
791.08	1091.00
791.33	1075.00
791.58	1091.00
791.83	1074.00
792.08	1066.00
792.34	1085.00
792.59	1068.00
792.84	1088.00
793.09	1090.00
793.34	1078.00
793.59	1088.00
793.84	1062.00
794.10	1089.00
794.35	1086.00
794.60	1067.00
794.85	1074.00
795.10	1079.00
795.35	1090.00
795.60	1088.00
795.85	1103.00
796.10	1113.00
796.36	1084.00
796.61	1115.00
796.86	1092.00
797.11	1081.00
797.36	1112.00
797.61	1090.00
797.86	1066.00
798.11	1063.00
798.37	1077.00
798.62	1076.00
798.87	1074.00
799.12	1078.00
799.37	1079.00
799.62	1096.00
799.87	1088.00
800.12	1067.00
800.37	1064.00
800.63	1091.00
800.88	1092.00
801.13	1059.00
801.38	1076.00
801.63	1089.00
801.88	1083.00
802.13	1056.00
802.38	1073.00
802.63	1062.00
802.88	1075.00
803.13	1071.00
803.39	1064.00
803.64	1073.00
803.89	1078.00
804.14	1106.00
804.39	1091.00
804.64	1097.00
804.89	1091.00
805.14	1069.00
805.39	1079.00
805.64	1084.00
805.89	1077.00
806.15	1106.00
806.40	1084.00
806.65	1091.00
806.90	1058.00
807.15	1093.00
807.40	1088.00
807.65	1090.00
807.90	1094.00
808.15	1075.00
808.40	1120.00
808.65	1093.00
808.90	1076.00
809.15	1095.00
809.41	1078.00
809.66	1060.00
809.91	1041.00
810.16	1086.00
810.41	1102.00
810.66	1062.00
810.91	1075.00
811.16	1074.00
811.41	1061.00
811.66	1069.00
811.91	1069.00
812.16	1067.00
812.41	1057.00
812.66	1068.00
812.91	1072.00
813.17	1094.00
813.42	1075.00
813.67	1093.00
813.92	1069.00
814.17	1047.00
814.42	1068.00
814.67	1083.00
814.92	1064.00
815.17	1068.00
815.42	1058.00
815.67	1074.00
815.92	1062.00
816.17	1085.00
816.42	1067.00
816.67	1063.00
816.92	1057.00
817.17	1090.00
817.42	1113.00
817.67	1072.00
817.92	1078.00
818.17	1058.00
818.42	1072.00
818.68	1089.00
818.93	1053.00
819.18	1085.00
819.43	1067.00
819.68	1042.00
819.93	1060.00
820.18	1097.00
820.43	1115.00
820.68	1072.00
820.93	1067.00
821.18	1075.00
821.43	1068.00
821.68	1090.00
821.93	1067.00
822.18	1067.00
822.43	1063.00
822.68	1080.00
822.93	1062.00
823.18	1056.00
823.43	1070.00
823.68	1071.00
823.93	1076.00
824.18	1060.00
824.43	1080.00
824.68	1063.00
824.93	1073.00
825.18	1073.00
825.43	1052.00
825.68	1065.00
825.93	1062.00
826.18	1063.00
826.43	1077.00
826.68	1086.00
826.93	1067.00
827.18	1066.00
827.43	1042.00
827.68	1040.00
827.93	1057.00
828.18	1063.00
828.43	1061.00
828.68	1056.00
828.93	1055.00
829.18	1074.00
829.43	1057.00
829.68	1043.00
829.93	1056.00
830.18	1066.00
830.43	1045.00
830.68	1054.00
830.93	1036.00
831.18	1059.00
831.43	1071.00
831.68	1066.00
831.93	1046.00
832.18	1059.00
832.43	1036.00
832.68	1075.00
832.93	1069.00
833.18	1064.00
833.43	1044.00
833.68	1029.00
833.93	1037.00
834.18	1037.00
834.43	1052.00
834.68	1036.00
834.93	1085.00
835.18	1046.00
835.43	1051.00
835.68	1059.00
835.93	1059.00
836.18	1039.00
836.43	1048.00
836.68	1064.00
836.93	1053.00
837.18	1026.00
837.43	1040.00
837.67	1040.00
837.92	1044.00
838.17	1005.00
838.42	1044.00
838.67	1051.00
838.92	1045.00
839.17	1014.00
839.42	1037.00
839.67	1037.00
839.92	1059.00
840.17	1048.00
840.42	1047.00
840.67	1051.00
840.92	1039.00
841.17	1036.00
841.42	1031.00
841.67	1020.00
841.92	1044.00
842.17	1041.00
842.42	1048.00
842.67	1030.00
842.92	1027.00
843.16	1054.00
843.41	1059.00
843.66	1043.00
843.91	1046.00
844.16	1032.00
844.41	1040.00
844.66	1036.00
844.91	1035.00
845.16	1040.00
845.41	1040.00
845.66	1027.00
845.91	1037.00
846.16	1044.00
846.41	1018.00
846.66	1033.00
846.90	1015.00
847.15	1039.00
847.40	1045.00
847.65	1030.00
847.90	1009.00
848.15	1050.00
848.40	1042.00
848.65	1034.00
848.90	1024.00
849.15	1047.00
849.40	1042.00
849.65	1040.00
849.90	1018.00
850.14	1043.00
850.39	1030.00
850.64	1032.00
850.89	1040.00
851.14	1041.00
851.39	1021.00
851.64	1028.00
851.89	1035.00
852.14	1024.00
852.39	1023.00
852.64	1031.00
852.88	1029.00
853.13	1013.00
853.38	1006.00
853.63	1031.00
853.88	1046.00
854.13	1034.00
854.38	1008.00
854.63	1028.00
854.88	1034.00
855.13	1019.00
855.37	1015.00
855.62	1033.00
855.87	1010.00
856.12	1015.00
856.37	1003.00
856.62	1031.00
856.87	1037.00
857.12	1035.00
857.37	1033.00
857.61	1014.00
857.86	1000.00
858.11	996.00
858.36	1030.00
858.61	1007.00
858.86	1015.00
859.11	1000.00
859.36	998.00
859.61	1014.00
859.85	1004.00
860.10	999.00
860.35	1018.00
860.60	1016.00
860.85	1007.00
861.10	1027.00
861.35	1017.00
861.60	1030.00
861.84	1027.00
862.09	1014.00
862.34	1005.00
862.59	1016.00
862.84	1040.00
863.09	1008.00
863.34	1008.00
863.58	1002.00
863.83	1011.00
864.08	1012.00
864.33	1001.00
864.58	1003.00
864.83	1004.00
865.08	997.00
865.32	1014.00
865.57	1001.00
865.82	1003.00
866.07	1013.00
866.32	1008.00
866.57	1012.00
866.82	1007.00
867.06	994.00
867.31	1003.00
867.56	973.00
867.81	995.00
868.06	1022.00
868.31	1016.00
868.56	1028.00
868.80	1008.00
869.05	997.00
869.30	984.00
869.55	1019.00
869.80	1009.00
870.05	1011.00
870.29	985.00
870.54	997.00
870.79	991.00
871.04	972.00
871.29	999.00
871.54	1001.00
871.78	983.00
872.03	1001.00
872.28	1012.00
872.53	993.00
872.78	1016.00
873.03	1037.00
873.27	1011.00
873.52	996.00
873.77	987.00
874.02	989.00
874.27	1006.00
874.52	1005.00
874.76	1009.00
875.01	986.00
875.26	979.00
875.51	976.00
875.76	984.00
876.00	985.00
876.25	962.00
876.50	975.00
876.75	984.00
877.00	980.00
877.24	999.00
877.49	978.00
877.74	1006.00
877.99	988.00
878.24	1005.00
878.49	999.00
878.73	1020.00
878.98	991.00
879.23	997.00
879.48	1009.00
879.73	1009.00
879.97	997.00
880.22	995.00
880.47	979.00
880.72	986.00
880.97	1000.00
881.21	1017.00
881.46	983.00
881.71	987.00
881.96	993.00
882.21	969.00
882.45	992.00
882.70	971.00
882.95	989.00
883.20	981.00
883.44	954.00
883.69	984.00
883.94	984.00
884.19	1008.00
884.44	1008.00
884.68	993.00
884.93	1001.00
885.18	986.00
885.43	971.00
885.67	955.00
885.92	973.00
886.17	987.00
886.42	998.00
886.67	961.00
886.91	982.00
887.16	987.00
887.41	978.00
887.66	993.00
887.90	993.00
888.15	977.00
888.40	994.00
888.65	955.00
888.89	974.00
889.14	958.00
889.39	974.00
889.64	1002.00
889.89	989.00
890.13	972.00
890.38	974.00
890.63	986.00
890.88	990.00
891.12	986.00
891.37	975.00
891.62	984.00
891.87	993.00
892.11	978.00
892.36	984.00
892.61	962.00
892.86	968.00
893.10	961.00
893.35	972.00
893.60	963.00
893.85	991.00
894.09	999.00
894.34	999.00
894.59	983.00
894.84	982.00
895.08	992.00
895.33	991.00
895.58	985.00
895.83	981.00
896.07	981.00
896.32	998.00
896.57	978.00
896.81	994.00
897.06	985.00
897.31	984.00
897.56	981.00
897.80	960.00
898.05	961.00
898.30	984.00
898.55	960.00
898.79	965.00
899.04	970.00
899.29	969.00
899.53	965.00
899.78	976.00
900.03	987.00
900.28	991.00
900.52	984.00
900.77	971.00
901.02	981.00
901.26	1002.00
901.51	970.00
901.76	977.00
902.01	983.00
902.25	955.00
902.50	961.00
902.75	976.00
902.99	983.00
903.24	996.00
903.49	986.00
903.74	988.00
903.98	961.00
904.23	970.00
904.48	955.00
904.72	967.00
904.97	963.00
905.22	987.00
905.47	957.00
905.71	955.00
905.96	949.00
906.21	961.00
906.45	977.00
906.70	962.00
906.95	960.00
907.19	963.00
907.44	976.00
907.69	961.00
907.93	972.00
908.18	954.00
908.43	996.00
908.68	965.00
908.92	993.00
909.17	967.00
909.42	1011.00
909.66	960.00
909.91	1001.00
910.16	977.00
910.40	967.00
910.65	985.00
910.90	969.00
911.14	986.00
911.39	960.00
911.64	955.00
911.88	981.00
912.13	963.00
912.38	950.00
912.62	941.00
912.87	974.00
913.12	970.00
913.36	976.00
913.61	971.00
913.86	956.00
914.10	958.00
914.35	975.00
914.60	973.00
914.84	953.00
915.09	967.00
915.34	984.00
915.58	975.00
915.83	1001.00
916.08	982.00
916.32	979.00
916.57	940.00
916.82	939.00
917.06	973.00
917.31	985.00
917.56	999.00
917.80	957.00
918.05	964.00
918.30	994.00
918.54	966.00
918.79	972.00
919.03	981.00
919.28	970.00
919.53	985.00
919.77	958.00
920.02	977.00
920.27	968.00
920.51	967.00
920.76	961.00
921.01	976.00
921.25	964.00
921.50	945.00
921.74	965.00
921.99	966.00
922.24	988.00
922.48	998.00
922.73	970.00
922.98	968.00
923.22	960.00
923.47	952.00
923.72	976.00
923.96	990.00
924.21	980.00
924.45	970.00
924.70	963.00
924.95	975.00
925.19	1005.00
925.44	973.00
925.68	948.00
925.93	968.00
926.18	981.00
926.42	960.00
926.67	954.00
926.92	954.00
927.16	971.00
927.41	964.00
927.65	974.00
927.90	967.00
928.15	976.00
928.39	972.00
928.64	968.00
928.88	975.00
929.13	968.00
929.38	969.00
929.62	963.00
929.87	981.00
930.11	979.00
930.36	959.00
930.61	979.00
930.85	973.00
931.10	974.00
931.34	960.00
931.59	960.00
931.84	950.00
932.08	971.00
932.33	963.00
932.57	957.00
932.82	966.00
933.07	964.00
933.31	935.00
933.56	944.00
933.80	951.00
934.05	989.00
934.29	969.00
934.54	938.00
934.79	974.00
935.03	978.00
935.28	959.00
935.52	980.00
935.77	963.00
936.02	962.00
936.26	952.00
936.51	980.00
936.75	967.00
937.00	955.00
937.24	952.00
937.49	952.00
937.74	967.00
937.98	969.00
938.23	957.00
938.47	963.00
938.72	965.00
938.96	944.00
939.21	968.00
939.46	962.00
939.70	971.00
939.95	966.00
940.19	962.00
940.44	968.00
940.68	964.00
940.93	955.00
941.17	938.00
941.42	979.00
941.67	964.00
941.91	964.00
942.16	952.00
942.40	949.00
942.65	967.00
942.89	990.00
943.14	959.00
943.38	981.00
943.63	962.00
943.87	969.00
944.12	972.00
944.37	950.00
944.61	970.00
944.86	955.00
945.10	961.00
945.35	951.00
945.59	969.00
945.84	971.00
946.08	967.00
946.33	972.00
946.57	968.00
946.82	985.00
947.06	973.00
947.31	958.00
947.56	961.00
947.80	965.00
948.05	949.00
948.29	949.00
948.54	970.00
948.78	1008.00
949.03	978.00
949.27	977.00
949.52	941.00
949.76	969.00
950.01	968.00
950.25	976.00
950.50	966.00
950.74	968.00
950.99	969.00
951.23	961.00
951.48	941.00
951.72	952.00
951.97	958.00
952.21	952.00
952.46	984.00
952.70	961.00
952.95	955.00
953.19	947.00
953.44	961.00
953.68	957.00
953.93	966.00
954.17	953.00
954.42	956.00
954.66	960.00
954.91	978.00
955.15	965.00
955.40	978.00
955.64	983.00
955.89	961.00
956.13	960.00
956.38	966.00
956.62	994.00
956.87	964.00
957.11	986.00
957.36	963.00
957.60	945.00
957.85	976.00
958.09	947.00
958.34	958.00
958.58	946.00
958.83	958.00
959.07	969.00
959.32	979.00
959.56	962.00
959.81	963.00
960.05	941.00
960.30	970.00
960.54	976.00
960.79	973.00
961.03	964.00
961.28	956.00
961.52	929.00
961.77	954.00
962.01	967.00
962.25	976.00
962.50	952.00
962.74	969.00
962.99	950.00
963.23	962.00
963.48	961.00
963.72	978.00
963.97	979.00
964.21	976.00
964.46	974.00
964.70	961.00
964.95	979.00
965.19	964.00
965.43	984.00
965.68	962.00
965.92	946.00
966.17	968.00
966.41	982.00
966.66	969.00
966.90	977.00
967.15	962.00
967.39	985.00
967.64	965.00
967.88	968.00
968.12	953.00
968.37	945.00
968.61	967.00
968.86	979.00
969.10	954.00
969.35	960.00
969.59	965.00
969.83	978.00
970.08	982.00
970.32	990.00
970.57	962.00
970.81	943.00
971.06	957.00
971.30	966.00
971.55	962.00
971.79	944.00
972.03	966.00
972.28	941.00
972.52	937.00
972.77	973.00
973.01	964.00
973.26	977.00
973.50	973.00
973.74	958.00
973.99	961.00
974.23	976.00
974.48	976.00
974.72	936.00
974.96	940.00
975.21	945.00
975.45	967.00
975.70	918.00
975.94	968.00
976.19	985.00
976.43	972.00
976.67	961.00
976.92	955.00
977.16	958.00
977.41	955.00
977.65	947.00
977.89	968.00
978.14	958.00
978.38	951.00
978.63	952.00
978.87	966.00
979.11	929.00
979.36	960.00
979.60	960.00
979.85	988.00
980.09	962.00
980.33	954.00
980.58	964.00
980.82	963.00
981.07	964.00
981.31	969.00
981.55	979.00
981.80	964.00
982.04	971.00
982.28	959.00
982.53	971.00
982.77	968.00
983.02	961.00
983.26	953.00
983.50	955.00
983.75	956.00
983.99	961.00
984.24	961.00
984.48	980.00
984.72	965.00
984.97	968.00
985.21	954.00
985.45	940.00
985.70	941.00
985.94	967.00
986.19	938.00
986.43	966.00
986.67	964.00
986.92	960.00
987.16	939.00
987.40	944.00
987.65	976.00
987.89	949.00
988.13	939.00
988.38	956.00
988.62	977.00
988.87	977.00
989.11	953.00
989.35	970.00
989.60	954.00
989.84	971.00
990.08	937.00
990.33	960.00
990.57	965.00
990.81	967.00
991.06	961.00
991.30	965.00
991.54	961.00
991.79	971.00
992.03	959.00
992.27	957.00
992.52	962.00
992.76	954.00
993.00	957.00
993.25	950.00
993.49	965.00
993.73	961.00
993.98	945.00
994.22	944.00
994.47	957.00
994.71	953.00
994.95	944.00
995.20	964.00
995.44	976.00
995.68	964.00
995.92	952.00
996.17	953.00
996.41	979.00
996.65	980.00
996.90	952.00
997.14	960.00
997.38	947.00
997.63	953.00
997.87	972.00
998.11	963.00
998.36	967.00
998.60	972.00
998.84	948.00
999.09	980.00
999.33	962.00
999.57	970.00
999.82	972.00
1000.06	941.00
1000.30	932.00
1000.55	969.00
1000.79	933.00
1001.03	944.00
1001.27	940.00
1001.52	935.00
1001.76	967.00
1002.00	962.00
1002.25	931.00
1002.49	977.00
1002.73	947.00
1002.98	990.00
1003.22	961.00
1003.46	957.00
1003.70	958.00
1003.95	951.00
1004.19	941.00
1004.43	951.00
1004.68	950.00
1004.92	982.00
1005.16	973.00
1005.41	976.00
1005.65	957.00
1005.89	957.00
1006.13	961.00
1006.38	940.00
1006.62	982.00
1006.86	983.00
1007.11	965.00
1007.35	986.00
1007.59	965.00
1007.83	976.00
1008.08	969.00
1008.32	945.00
1008.56	961.00
1008.80	953.00
1009.05	966.00
1009.29	949.00
1009.53	950.00
1009.78	944.00
1010.02	969.00
1010.26	943.00
1010.50	952.00
1010.75	942.00
1010.99	968.00
1011.23	950.00
1011.47	921.00
1011.72	936.00
1011.96	947.00
1012.20	965.00
1012.44	977.00
1012.69	961.00
1012.93	963.00
1013.17	967.00
1013.42	986.00
1013.66	957.00
1013.90	973.00
1014.14	968.00
1014.39	958.00
1014.63	936.00
1014.87	957.00
1015.11	979.00
1015.36	941.00
1015.60	954.00
1015.84	943.00
1016.08	976.00
1016.33	962.00
1016.57	941.00
1016.81	957.00
1017.05	952.00
1017.29	965.00
1017.54	955.00
1017.78	957.00
1018.02	997.00
1018.26	950.00
1018.51	952.00
1018.75	966.00
1018.99	956.00
1019.23	968.00
1019.48	969.00
1019.72	953.00
1019.96	954.00
1020.20	940.00
1020.44	949.00
1020.69	946.00
1020.93	964.00
1021.17	930.00
1021.41	957.00
1021.66	984.00
1021.90	978.00
1022.14	967.00
1022.38	953.00
1022.62	964.00
1022.87	953.00
1023.11	932.00
1023.35	961.00
1023.59	947.00
1023.84	958.00
1024.08	969.00
1024.32	954.00
1024.56	933.00
1024.80	962.00
1025.05	934.00
1025.29	965.00
1025.53	979.00
1025.77	989.00
1026.01	953.00
1026.26	968.00
1026.50	948.00
1026.74	966.00
1026.98	928.00
1027.22	948.00
1027.47	966.00
1027.71	958.00
1027.95	942.00
1028.19	971.00
1028.43	956.00
1028.68	936.00
1028.92	936.00
1029.16	950.00
1029.40	960.00
1029.64	970.00
1029.88	952.00
1030.13	977.00
1030.37	950.00
1030.61	963.00
1030.85	958.00
1031.09	968.00
1031.34	955.00
1031.58	970.00
1031.82	952.00
1032.06	940.00
1032.30	955.00
1032.54	976.00
1032.79	956.00
1033.03	970.00
1033.27	969.00
1033.51	944.00
1033.75	932.00
1033.99	1041.00
1034.24	975.00
1034.48	972.00
1034.72	939.00
1034.96	964.00
1035.20	963.00
1035.44	972.00
1035.69	962.00
1035.93	958.00
1036.17	937.00
1036.41	961.00
1036.65	952.00
1036.89	960.00
1037.14	951.00
1037.38	952.00
1037.62	969.00
1037.86	967.00
1038.10	960.00
1038.34	963.00
1038.58	965.00
1038.83	937.00
1039.07	937.00
1039.31	940.00
1039.55	936.00
1039.79	961.00
1040.03	956.00
1040.27	960.00
1040.52	954.00
1040.76	965.00
1041.00	941.00
1041.24	940.00
1041.48	964.00
1041.72	950.00
1041.96	981.00
1042.21	964.00
1042.45	972.00
1042.69	926.00
1042.93	973.00
1043.17	940.00
1043.41	954.00
1043.65	946.00
1043.89	971.00
1044.14	965.00
1044.38	942.00
1044.62	950.00
1044.86	953.00
1045.10	959.00
1045.34	951.00
1045.58	957.00
1045.82	990.00
1046.07	958.00
1046.31	962.00
1046.55	966.00
1046.79	969.00
1047.03	937.00
1047.27	945.00
1047.51	957.00
1047.75	927.00
1047.99	946.00
1048.24	956.00
1048.48	946.00
1048.72	959.00
1048.96	960.00
1049.20	919.00
1049.44	937.00
1049.68	965.00
1049.92	952.00
1050.16	948.00
1050.40	956.00
1050.65	978.00
1050.89	961.00
1051.13	925.00
1051.37	936.00
1051.61	958.00
1051.85	956.00
1052.09	955.00
1052.33	964.00
1052.57	955.00
1052.81	964.00
1053.05	969.00
1053.30	955.00
1053.54	950.00
1053.78	962.00
1054.02	955.00
1054.26	956.00
1054.50	962.00
1054.74	976.00
1054.98	965.00
1055.22	961.00
1055.46	952.00
1055.70	980.00
1055.94	970.00
1056.18	945.00
1056.43	962.00
1056.67	968.00
1056.91	953.00
1057.15	958.00
1057.39	977.00
1057.63	950.00
1057.87	922.00
1058.11	940.00
1058.35	964.00
1058.59	970.00
1058.83	945.00
1059.07	949.00
1059.31	949.00
1059.55	972.00
1059.79	962.00
1060.03	965.00
1060.27	973.00
1060.52	968.00
1060.76	973.00
1061.00	974.00
1061.24	970.00
1061.48	984.00
1061.72	971.00
1061.96	940.00
1062.20	944.00
1062.44	964.00
1062.68	944.00
1062.92	928.00
1063.16	933.00
1063.40	947.00
1063.64	964.00
1063.88	929.00
1064.12	991.00
1064.36	982.00
1064.60	963.00
1064.84	960.00
1065.08	957.00
1065.32	967.00
1065.56	946.00
1065.80	946.00
1066.04	952.00
1066.29	989.00
1066.53	971.00
1066.77	965.00
1067.01	988.00
1067.25	969.00
1067.49	958.00
1067.73	968.00
1067.97	972.00
1068.21	948.00
1068.45	937.00
1068.69	955.00
1068.93	946.00
1069.17	965.00
1069.41	950.00
1069.65	964.00
1069.89	969.00
1070.13	958.00
1070.37	960.00
1070.61	934.00
1070.85	974.00
1071.09	974.00
1071.33	978.00
1071.57	969.00
1071.81	984.00
1072.05	929.00
1072.29	951.00
1072.53	952.00
1072.77	957.00
1073.01	962.00
1073.25	931.00
1073.49	976.00
1073.73	977.00
1073.97	965.00
1074.21	944.00
1074.45	941.00
1074.69	961.00
1074.93	957.00
1075.17	952.00
1075.41	958.00
1075.65	988.00
1075.89	984.00
1076.13	970.00
1076.37	946.00
1076.61	976.00
1076.85	960.00
1077.09	950.00
1077.33	944.00
1077.57	961.00
1077.81	955.00
1078.05	961.00
1078.29	976.00
1078.53	948.00
1078.76	976.00
1079.00	953.00
1079.24	980.00
1079.48	956.00
1079.72	946.00
1079.96	957.00
1080.20	974.00
1080.44	969.00
1080.68	968.00
1080.92	962.00
1081.16	960.00
1081.40	949.00
1081.64	969.00
1081.88	957.00
1082.12	969.00
1082.36	977.00
1082.60	952.00
1082.84	968.00
1083.08	954.00
1083.32	961.00
1083.56	958.00
1083.80	957.00
1084.04	976.00
1084.28	952.00
1084.52	970.00
1084.75	953.00
1084.99	950.00
1085.23	962.00
1085.47	960.00
1085.71	948.00
1085.95	934.00
1086.19	934.00
1086.43	965.00
1086.67	948.00
1086.91	953.00
1087.15	955.00
1087.39	951.00
1087.63	942.00
1087.87	946.00
1088.11	953.00
1088.35	950.00
1088.58	954.00
1088.82	960.00
1089.06	972.00
1089.30	961.00
1089.54	951.00
1089.78	972.00
1090.02	950.00
1090.26	973.00
1090.50	976.00
1090.74	969.00
1090.98	977.00
1091.22	973.00
1091.46	960.00
1091.69	954.00
1091.93	970.00
1092.17	953.00
1092.41	943.00
1092.65	969.00
1092.89	969.00
1093.13	965.00
1093.37	946.00
1093.61	960.00
1093.85	974.00
1094.09	967.00
1094.32	948.00
1094.56	958.00
1094.80	973.00
1095.04	961.00
1095.28	953.00
1095.52	946.00
1095.76	946.00
1096.00	965.00
1096.24	954.00
1096.48	956.00
1096.71	967.00
1096.95	973.00
1097.19	970.00
1097.43	949.00
1097.67	956.00
1097.91	983.00
1098.15	954.00
1098.39	964.00
1098.63	969.00
1098.86	977.00
1099.10	941.00
1099.34	957.00
1099.58	941.00
1099.82	932.00
1100.06	981.00
1100.30	966.00
1100.54	976.00
1100.77	950.00
1101.01	954.00
1101.25	947.00
1101.49	956.00
1101.73	980.00
1101.97	937.00
1102.21	968.00
1102.45	944.00
1102.68	952.00
1102.92	972.00
1103.16	941.00
1103.40	950.00
1103.64	947.00
1103.88	949.00
1104.12	936.00
1104.35	947.00
1104.59	952.00
1104.83	922.00
1105.07	943.00
1105.31	965.00
1105.55	946.00
1105.79	961.00
1106.02	953.00
1106.26	958.00
1106.50	953.00
1106.74	968.00
1106.98	962.00
1107.22	965.00
1107.46	967.00
1107.69	944.00
1107.93	958.00
1108.17	972.00
1108.41	979.00
1108.65	938.00
1108.89	953.00
1109.12	939.00
1109.36	949.00
1109.60	926.00
1109.84	944.00
1110.08	932.00
1110.32	954.00
1110.55	955.00
1110.79	952.00
1111.03	939.00
1111.27	945.00
1111.51	961.00
1111.75	948.00
1111.98	969.00
1112.22	954.00
1112.46	955.00
1112.70	953.00
1112.94	966.00
1113.18	978.00
1113.41	979.00
1113.65	956.00
1113.89	947.00
1114.13	951.00
1114.37	960.00
1114.60	926.00
1114.84	948.00
1115.08	945.00
1115.32	956.00
1115.56	945.00
1115.79	949.00
1116.03	971.00
1116.27	961.00
1116.51	955.00
1116.75	962.00
1116.98	960.00
1117.22	923.00
1117.46	958.00
1117.70	929.00
1117.94	940.00
1118.17	945.00
1118.41	938.00
1118.65	961.00
1118.89	934.00
1119.13	948.00
1119.36	939.00
1119.60	938.00
1119.84	962.00
1120.08	976.00
1120.32	951.00
1120.55	952.00
1120.79	964.00
1121.03	944.00
1121.27	960.00
1121.51	964.00
1121.74	960.00
1121.98	990.00
1122.22	966.00
1122.46	967.00
1122.69	933.00
1122.93	967.00
1123.17	964.00
1123.41	951.00
1123.65	969.00
1123.88	967.00
1124.12	973.00
1124.36	964.00
1124.60	978.00
1124.83	948.00
1125.07	958.00
>>>>>End Processed Spectral Data<<<<<
